Folder: Python_for_scientists_ICIQ_2018/Example_CV (part 2)

File: Co_17_500mV_01_CV_02_CV_02_CV_C01.txt
EC-Lab ASCII FILE
Nb header lines : 53

Cyclic Voltammetry

Run on channel : 1 (SN 24330)
User :
CE vs. WE compliance from -10 V to 10 V
Electrode connection : standard
Ewe ctrl range : min = -2,50 V, max = 2,50 V
Safety Limits :
	Do not start on E overload
Acquisition started on : 10/05/2017 17:39:34
Saved on :
	File : Co_17_500mV_01_CV_02_CV_02_CV_C01.mpr
	Directory : C:\Users\usuario\Documents\EC-Lab\Data\Federico\R=H\CO2 reduction\CV_scan rates CO2_0,4 mM_GC 1mm_5-10-2017\
	Host : 192.168.1.115
Device : VSP (SN 1463)
Address : USB
EC-Lab for windows v11.10 (software)
Internet server v11.10 (firmware)
Command interpretor v11.10 (firmware)
Electrode material :
Initial state :
Electrolyte :
Comments :
Electrode surface area : 0,001 cm²
Characteristic mass : 0,001 g
Equivalent Weight : 0,000 g/eq.
Density : 0,000 g/cm3
Ei (V)              0,100
vs.                 Ref
dE/dt               500,000
dE/dt unit          mV/s
E1 (V)              -1,920
vs.                 Ref
Step percent        50
N                   20
E range min (V)     -2,500
E range max (V)     2,500
I Range             Auto
I Range min         Unset
I Range max         Unset
I Range init        Unset
Bandwidth           5
E2 (V)              1,000
vs.                 Ref
nc cycles           0
Reverse Scan        1
Ef (V)              0,000
vs.                 Ref

mode	ox/red	error	control changes	counter inc.	time/s	control/V	Ewe/V	<I>/mA	cycle number	(Q-Qo)/C	Rcmp/Ohm	Capacitance charge/µF	Capacitance discharge/µF	P/W
2	0	0	0	0	2,2728	0,0999704227	0,0990418121	-0,00015200732741504909	1	0	278,516663	0	0	1,50550807E-008
2	0	0	1	0	2,4349	0,018920403	0,0183522403	-0,00011740437338104125	1	-1,56092117E-008	278,516449	0	0,19640068632985542	2,15463336E-009
2	0	0	1	0	2,5989	-0,063079603	-0,0637924448	-0,00016285038864345203	1	-3,85173742E-008	278,516449	0	0,23868691779247536	1,03886242E-008
2	0	0	1	0	2,7629	-0,145079628	-0,145706922	-0,00021024286204943814	1	-6,93062887E-008	278,516449	0	0,28508374253532314	3,06338386E-008
2	0	0	1	0	2,9269	-0,227079675	-0,227721959	-0,00024680740329592003	1	-1,07017314E-007	278,516449	0	0,3292194458515833	5,6203465E-008
2	0	0	1	0	3,0909	-0,309079736	-0,30970335	-0,00027537990314236131	1	-1,49772021E-007	278,516449	0	0,36799131081998502	8,52860751E-008
2	0	0	1	0	3,2549	-0,391079694	-0,391753048	-0,00029867079252940672	1	-1,97133886E-007	278,516449	0	0,4031106109463449	1,17005193E-007
2	0	0	1	0	3,4189	-0,473079741	-0,473723769	-0,00030345158651363341	1	-2,46561825E-007	278,516449	0	0,43177077576394227	1,43752231E-007
2	0	0	1	0	3,5829	-0,555079758	-0,555680513	-0,00030915871858975226	1	-2,96830649E-007	278,516449	0	0,45453992681278368	1,71793474E-007
2	0	0	1	0	3,7469	-0,637079895	-0,637695551	-0,00031635670143259629	1	-3,48094915E-007	278,516449	0	0,47356207376867962	2,01739255E-007
2	0	0	1	0	3,9109	-0,719079852	-0,719701469	-0,00032404550291917702	1	-4,00468792E-007	278,516449	0	0,49013342699173498	2,33216028E-007
2	0	0	1	0	4,0749	-0,801079929	-0,801657736	-0,0003336506239801735	1	-4,54280837E-007	278,516449	0	0,50531614438644	2,67473609E-007
2	0	0	1	0	4,2389	-0,883079946	-0,883770823	-0,00038970350675526528	1	-5,11838778E-007	278,516449	0	0,52178142340799814	3,44408591E-007
2	0	0	1	0	4,4029	-0,965079963	-0,96575278	-0,0012578310482982238	1	-6,18450429E-007	278,516449	0	0,58332191127053862	1,21475387E-006
2	0	0	1	0	4,5669	-1,04707992	-1,0477227	-0,003195504002322096	1	-1,03443074E-006	278,516449	0	0,90773835021951091	3,34800211E-006
2	0	0	1	0	4,7313	-1,12928009	-1,1298995	-0,002342382411322761	1	-1,48609263E-006	278,516449	0	1,2133837915723405	2,64665664E-006
2	0	0	0	0	4,8955	-1,21138	-1,21200752	-0,0019783219384671024	1	-1,83498878E-006	278,516449	0	1,403069261436468	2,39774113E-006
2	0	0	0	0	5,0595	-1,29338002	-1,29402745	-0,0018948203852160902	1	-2,15051182E-006	278,516449	0	1,5468986120705846	2,45194951E-006
2	0	0	0	0	5,2235	-1,37538004	-1,37601185	-0,0019641018531346109	1	-2,4641347E-006	278,516449	0	1,6736811596959139	2,7026274E-006
2	0	0	0	0	5,3875	-1,45738029	-1,45795655	-0,0024348960703862646	1	-2,81658413E-006	278,516449	0	1,8125898159379504	3,54997269E-006
2	0	0	0	0	5,5515	-1,53938031	-1,5399766	-0,003823943751333561	1	-3,31077536E-006	278,516449	0	2,0250856611681635	5,88878402E-006
2	0	0	0	0	5,7155	-1,62137997	-1,62194192	-0,006030487138080992	1	-4,11932342E-006	278,516449	0	2,4010116001577571	9,78109983E-006
2	0	0	0	0	5,8795	-1,70338011	-1,70405889	-0,0088846652411838643	1	-5,32806234E-006	278,516449	0	2,9652102933130675	1,51399927E-005
2	0	0	0	0	6,0735	-1,80038011	-1,80098391	-0,011761673778030486	1	-7,37041546E-006	278,516449	0	3,8981155627961453	2,11825845E-005
2	0	0	0	0	6,2375	-1,88238025	-1,88296962	-0,012252680366241526	1	-9,35341814E-006	278,516449	0	4,7380777801631283	2,30714249E-005
2	1	0	0	0	6,3974	-1,87788296	-1,87846148	-0,0091204973019474726	1	-1,11530235E-005	278,516479	0	5,656008514595527	1,71325028E-005
2	1	0	0	0	6,5837	-1,78471613	-1,78533423	-0,0058349963725656128	1	-1,25192582E-005	278,516479	0	6,6569263124108058	1,04174187E-005
2	1	0	1	0	6,7980	-1,67757821	-1,67818975	-0,0036351722175037434	1	-1,35174732E-005	278,51651	0	7,613352464986281	6,10050893E-006
2	1	0	1	0	6,9832	-1,58496451	-1,58554041	-0,0020035390803059203	1	-1,40414604E-005	278,516479	0	8,3411442975829376	3,17669219E-006
2	1	0	0	0	7,1690	-1,4920553	-1,49269009	-0,00069587046829155776	1	-1,4279929E-005	278,516479	0	8,9758053350312691	1,03871901E-006
2	1	0	1	0	7,3556	-1,39878261	-1,39936793	-0,00013667888410783326	1	-1,43490533E-005	278,516479	0	9,5801818404653798	1,9126405E-007
2	1	0	0	0	7,5421	-1,30549455	-1,30609441	3,4404275490814003E-005	1	-1,43557018E-005	278,516479	0,040190077896846458	9,9950459153796813	4,49352306E-008
2	1	0	1	0	7,7292	-1,21197796	-1,21259189	9,1675322464497856E-005	1	-1,43432326E-005	278,516479	0,11411155660269258	9,9950459153796813	1,11164752E-007
2	1	0	1	0	7,9156	-1,11875069	-1,11938679	0,0001224060049512905	1	-1,43228881E-005	278,51651	0,16041349299122131	9,9950459153796813	1,37019669E-007
2	1	0	0	0	8,1022	-1,02547109	-1,02613831	0,00014000431192846	1	-1,42982308E-005	278,516479	0,19261669327442861	9,9950459153796813	1,43663783E-007
2	1	0	0	0	8,3004	-0,926359355	-0,927035868	0,00015849096414596006	1	-1,42685931E-005	278,51651	0,21902656315649958	9,9950459153796813	1,46926808E-007
2	1	0	0	0	8,5014	-0,825850546	-0,826557755	0,00017520745775036877	1	-1,423507E-005	278,516479	0,24208097128413504	9,9950459153796813	1,44819083E-007
2	1	0	1	0	8,7056	-0,72377038	-0,724339902	0,0001902564656935863	1	-1,41979317E-005	278,516479	0,26269811410145078	9,9950459153796813	1,37810346E-007
2	1	0	0	0	8,9115	-0,620808184	-0,621430457	0,00020637332862535363	1	-1,41571709E-005	278,516449	0,28222463520564262	9,9950459153796813	1,28246668E-007
2	1	0	1	0	9,1167	-0,518215954	-0,518864393	0,00022411787718851997	1	-1,41129112E-005	278,516479	0,30125508840209344	9,9950459153796813	1,16286785E-007
2	1	0	0	0	9,2875	-0,432779908	-0,433427215	0,00025585083362874522	1	-1,40722623E-005	278,516449	0,31786696828736486	9,9950459153796813	1,10892714E-007
2	1	0	0	0	9,4515	-0,350779951	-0,351438403	0,00029758980622169165	1	-1,40266066E-005	278,516449	0,33785306905786976	9,9950459153796813	1,04584487E-007
[...]
2	1	0	0	0	10,4355	0,141220137	0,140648633	0,00068753088548515443	1	-1,35849559E-005	278,516449	0,52488887646223238	9,9950459153796813	9,67002762E-008
2	1	0	1	0	10,5997	0,223320112	0,222754106	0,00076754462655739814	1	-1,34652464E-005	278,516449	0,5741443536031319	9,9950459153796813	1,70973721E-007
2	1	0	1	0	10,7637	0,305320084	0,304718822	0,00084312435197525338	1	-1,3333316E-005	278,516449	0,62596682479973581	9,9950459153796813	2,56915854E-007
2	1	0	1	0	10,9277	0,387320042	0,38673529	0,0010511256390373126	1	-1,31823999E-005	278,516449	0,68400929965919859	9,9950459153796813	4,06507382E-007
2	1	0	0	0	11,1297	0,488271922	0,487712234	0,0011712383425810952	1	-1,29411892E-005	278,516479	0,77856706561152358	9,9950459153796813	5,71227247E-007
2	1	0	1	0	11,3021	0,574420035	0,573823035	0,0010330393179174333	1	-1,27534913E-005	278,516449	0,84158808858196403	9,9950459153796813	5,9278176E-007
2	1	0	1	0	11,4682	0,657469869	0,656902373	0,0011431567852412195	1	-1,25792994E-005	278,51651	0,8940185248905577	9,9950459153796813	7,50942377E-007
2	1	0	1	0	11,6338	0,740269899	0,739639044	0,0014728618064964413	1	-1,23530845E-005	278,51651	0,9676802474998007	9,9950459153796813	1,08938605E-006
2	1	0	0	0	11,7979	0,822321117	0,821788788	0,0013149972365729574	1	-1,2124543E-005	278,516449	1,0366167972009304	9,9950459153796813	1,08065001E-006
2	1	0	0	0	11,9619	0,904322326	0,903810143	0,0012568873764250525	1	-1,19151018E-005	278,516449	1,0921198077802363	9,9950459153796813	1,13598753E-006
2	1	0	0	0	12,1259	0,986323714	0,985835373	0,0012735731695437125	1	-1,17087102E-005	278,516449	1,1424494402188936	9,9950459153796813	1,25553345E-006
2	0	0	0	1	12,2757	0,938719988	0,938269496	0,00054993148029624941	1	-1,15881357E-005	278,516449	1,2190519848386072	9,9950459153796813	5,15983913E-007
2	0	0	0	1	12,4397	0,85672003	0,856210709	0,00037039218500766784	1	-1,15146058E-005	278,516449	1,2980767959658973	9,9950459153796813	3,17133754E-007
2	0	0	0	1	12,6037	0,774720132	0,774121821	0,00023954522117719578	1	-1,14637842E-005	278,516449	1,3725533732535022	9,9950459153796813	1,85437187E-007
2	0	0	0	1	12,7677	0,692720115	0,692186236	-0,00017435510594802787	1	-1,14538007E-005	278,516449	1,414304207301061	24,19153792432369	1,20686209E-007
2	0	0	0	1	12,9317	0,610720098	0,610118032	-0,00023730944340776928	1	-1,14951636E-005	278,516449	1,414304207301061	28,153129920728522	1,44786767E-007
2	0	0	0	1	13,0957	0,5287202	0,52815485	-0,00020394273553997034	1	-1,15299281E-005	278,516449	1,414304207301061	33,604461319830381	1,07713348E-007
2	0	0	0	1	13,2597	0,446720243	0,446148008	-0,00021994179954276573	1	-1,1564327E-005	278,516449	1,414304207301061	41,630301058194349	9,81265984E-008
2	0	0	0	1	13,4237	0,364720255	0,364117444	-0,00023680523987560493	1	-1,16020246E-005	278,516449	1,414304207301061	54,62865006490633	8,62249152E-008
2	0	0	0	1	13,5877	0,282720268	0,282191992	-0,00023324392724750896	1	-1,16408992E-005	278,516449	1,414304207301061	79,203173445121946	6,58195702E-008
2	0	0	0	1	13,7517	0,200720325	0,200119704	-0,00023270956308046483	1	-1,16789561E-005	278,516449	1,414304207301061	143,54003304239662	4,65697703E-008
2	0	0	0	1	13,9157	0,11872036	0,118172631	-0,00024350739010820182	1	-1,1717786E-005	278,516449	1,414304207301061	743,17416874160218	2,87759097E-008
2	0	0	0	1	14,0797	0,0367203988	0,0361360572	-0,00025923342013811462	1	-1,17590134E-005	278,516449	1,414304207301061	235,22981341869856	9,36767375E-009
2	0	0	0	1	14,1534	-0,000129586508	-0,000707337866	-0,00026263893232680858	1	-1,17783566E-005	278,516663	1,414304207301061	148,0580745879639	1,85774465E-010